[{"rt":8474.140000005718,"stimulus":"Welcome to the Pattern Comparison task. Press any key to begin.","key_press":13,"exp_stage":"instructions","trial_type":"html-keyboard-response","trial_index":0,"time_elapsed":8477,"internal_node_id":"0.0-0.0","final_tally":{"final_score":16.5,"p1":16,"p2":17}},{"rt":1608.5000000311993,"stimulus":"<p style:\"font-size:30px\">PATTERN COMPARISON</p><br><br><p>In this task you will be asked to determine whether two patterns of lines are the same or different. If the two patterns are the SAME, press the LEFT ARROW KEY. If the two patterns are DIFFERENT, press the RIGHT ARROW KEY. Please try to work as rapidly as you can.</p><br><p>You will complete a few practice trials with feedback before starting.</p><br><p>Press any key to continue.</p>","key_press":13,"exp_stage":"instructions","trial_type":"html-keyboard-response","trial_index":1,"time_elapsed":10091,"internal_node_id":"0.0-1.0","final_tally":{"final_score":16.5,"p1":16,"p2":17}},{"rt":1797.7800000226125,"stimulus":"<p>As a reminder, if the two patterns are the SAME, press the LEFT ARROW KEY. If the two patterns are DIFFERENT, press the RIGHT ARROW KEY.</p><br><p>Press any key to begin the practice trials.</p>","key_press":18,"exp_stage":"instructions","trial_type":"html-keyboard-response","trial_index":2,"time_elapsed":11891,"internal_node_id":"0.0-2.0","final_tally":{"final_score":16.5,"p1":16,"p2":17}},{"rt":6937.834999989718,"stimulus":"<div class=\"row\"><div class=\"column\"><img src=https://jmkuhns.github.io/pattern-comparison/patterns_practice/prac_1_1.png style=\"width:150px;height:150px\";></img></div><div class=\"column\"><img src=https://jmkuhns.github.io/pattern-comparison/patterns_practice/prac_1_2.png  style=\"width:150px;height:150px\";></img></div></div>","key_press":37,"corr_resp":37,"exp_stage":"practice","trial_type":"html-keyboard-response","trial_index":3,"time_elapsed":19085,"internal_node_id":"0.0-3.0-0.0","accuracy":1,"final_tally":{"final_score":16.5,"p1":16,"p2":17}},{"rt":792.2450000187382,"stimulus":"<div class=\"row\"><div class=\"column\"><img src=https://jmkuhns.github.io/pattern-comparison/patterns_practice/prac_2_1.png style=\"width:150px;height:150px\";></img></div><div class=\"column\"><img src=https://jmkuhns.github.io/pattern-comparison/patterns_practice/prac_2_2.png  style=\"width:150px;height:150px\";></img></div></div>","key_press":39,"corr_resp":39,"exp_stage":"practice","trial_type":"html-keyboard-response","trial_index":4,"time_elapsed":19883,"internal_node_id":"0.0-3.0-0.1","accuracy":1,"final_tally":{"final_score":16.5,"p1":16,"p2":17}},{"rt":1532.2049999958836,"stimulus":"<div class=\"row\"><div class=\"column\"><img src=https://jmkuhns.github.io/pattern-comparison/patterns_practice/prac_3_1.png style=\"width:150px;height:150px\";></img></div><div class=\"column\"><img src=https://jmkuhns.github.io/pattern-comparison/patterns_practice/prac_3_2.png  style=\"width:150px;height:150px\";></img></div></div>","key_press":39,"corr_resp":39,"exp_stage":"practice","trial_type":"html-keyboard-response","trial_index":5,"time_elapsed":21420,"internal_node_id":"0.0-3.0-0.2","accuracy":1,"final_tally":{"final_score":16.5,"p1":16,"p2":17}},{"rt":3788.3200000505894,"stimulus":"<p>You have now completed the practice trials. For the experiment, you will have 30 seconds to complete as many problems as you can. You will complete this process two times in total.<br><br>As a reminder, if the two patterns are the SAME, press the LEFT ARROW KEY. If the two patterns are DIFFERENT, press the RIGHT ARROW KEY. Please try to work as rapidly as you can.</p><br><p>Press any key to begin.</p>","key_press":13,"exp_stage":"instructions","trial_type":"html-keyboard-response","trial_index":6,"time_elapsed":25212,"internal_node_id":"0.0-4.0","final_tally":{"final_score":16.5,"p1":16,"p2":17}},{"rt":2715.009999985341,"stimulus":"<div class=\"row\"><div class=\"column\"><img src=https://jmkuhns.github.io/pattern-comparison/patterns/1_01_1.png style=\"width:150px;height:150px\";></img></div><div class=\"column\"><img src=https://jmkuhns.github.io/pattern-comparison/patterns/1_01_2.png  style=\"width:150px;height:150px\";></img></div></div>","key_press":37,"corr_resp":37,"exp_stage":"pattern_comp_p1","trial_type":"html-keyboard-response","trial_index":7,"time_elapsed":28187,"internal_node_id":"0.0-5.0-0.0-0.0","dur":30000,"time_between":2975,"final_tally":{"final_score":16.5,"p1":16,"p2":17}},{"rt":1396.164999983739,"stimulus":"<div class=\"row\"><div class=\"column\"><img src=https://jmkuhns.github.io/pattern-comparison/patterns/1_02_1.png style=\"width:150px;height:150px\";></img></div><div class=\"column\"><img src=https://jmkuhns.github.io/pattern-comparison/patterns/1_02_2.png  style=\"width:150px;height:150px\";></img></div></div>","key_press":39,"corr_resp":39,"exp_stage":"pattern_comp_p1","trial_type":"html-keyboard-response","trial_index":8,"time_elapsed":29596,"internal_node_id":"0.0-6.0-0.0-0.0","dur":27025,"time_between":1409,"final_tally":{"final_score":16.5,"p1":16,"p2":17}},{"rt":2592.800000042189,"stimulus":"<div class=\"row\"><div class=\"column\"><img src=https://jmkuhns.github.io/pattern-comparison/patterns/1_03_1.png style=\"width:150px;height:150px\";></img></div><div class=\"column\"><img src=https://jmkuhns.github.io/pattern-comparison/patterns/1_03_2.png  style=\"width:150px;height:150px\";></img></div></div>","key_press":37,"corr_resp":37,"exp_stage":"pattern_comp_p1","trial_type":"html-keyboard-response","trial_index":9,"time_elapsed":32195,"internal_node_id":"0.0-6.0-0.1-0.1","dur":25616,"time_between":2599,"final_tally":{"final_score":16.5,"p1":16,"p2":17}},{"rt":1145.7350000273436,"stimulus":"<div class=\"row\"><div class=\"column\"><img src=https://jmkuhns.github.io/pattern-comparison/patterns/1_04_1.png style=\"width:150px;height:150px\";></img></div><div class=\"column\"><img src=https://jmkuhns.github.io/pattern-comparison/patterns/1_04_2.png  style=\"width:150px;height:150px\";></img></div></div>","key_press":39,"corr_resp":39,"exp_stage":"pattern_comp_p1","trial_type":"html-keyboard-response","trial_index":10,"time_elapsed":33347,"internal_node_id":"0.0-6.0-0.2-0.2","dur":23017,"time_between":1152,"final_tally":{"final_score":16.5,"p1":16,"p2":17}},{"rt":2185.540000034962,"stimulus":"<div class=\"row\"><div class=\"column\"><img src=https://jmkuhns.github.io/pattern-comparison/patterns/1_05_1.png style=\"width:150px;height:150px\";></img></div><div class=\"column\"><img src=https://jmkuhns.github.io/pattern-comparison/patterns/1_05_2.png  style=\"width:150px;height:150px\";></img></div></div>","key_press":37,"corr_resp":37,"exp_stage":"pattern_comp_p1","trial_type":"html-keyboard-response","trial_index":11,"time_elapsed":35538,"internal_node_id":"0.0-6.0-0.3-0.3","dur":21865,"time_between":2191,"final_tally":{"final_score":16.5,"p1":16,"p2":17}},{"rt":842.6350000081584,"stimulus":"<div class=\"row\"><div class=\"column\"><img src=https://jmkuhns.github.io/pattern-comparison/patterns/1_06_1.png style=\"width:150px;height:150px\";></img></div><div class=\"column\"><img src=https://jmkuhns.github.io/pattern-comparison/patterns/1_06_2.png  style=\"width:150px;height:150px\";></img></div></div>","key_press":39,"corr_resp":39,"exp_stage":"pattern_comp_p1","trial_type":"html-keyboard-response","trial_index":12,"time_elapsed":36387,"internal_node_id":"0.0-6.0-0.4-0.4","dur":19674,"time_between":849,"final_tally":{"final_score":16.5,"p1":16,"p2":17}},{"rt":1650.565000018105,"stimulus":"<div class=\"row\"><div class=\"column\"><img src=https://jmkuhns.github.io/pattern-comparison/patterns/1_07_1.png style=\"width:150px;height:150px\";></img></div><div class=\"column\"><img src=https://jmkuhns.github.io/pattern-comparison/patterns/1_07_2.png  style=\"width:150px;height:150px\";></img></div></div>","key_press":37,"corr_resp":37,"exp_stage":"pattern_comp_p1","trial_type":"html-keyboard-response","trial_index":13,"time_elapsed":38043,"internal_node_id":"0.0-6.0-0.5-0.5","dur":18825,"time_between":1656,"final_tally":{"final_score":16.5,"p1":16,"p2":17}},{"rt":1410.1299999747425,"stimulus":"<div class=\"row\"><div class=\"column\"><img src=https://jmkuhns.github.io/pattern-comparison/patterns/1_08_1.png style=\"width:150px;height:150px\";></img></div><div class=\"column\"><img src=https://jmkuhns.github.io/pattern-comparison/patterns/1_08_2.png  style=\"width:150px;height:150px\";></img></div></div>","key_press":39,"corr_resp":39,"exp_stage":"pattern_comp_p1","trial_type":"html-keyboard-response","trial_index":14,"time_elapsed":39459,"internal_node_id":"0.0-6.0-0.6-0.6","dur":17169,"time_between":1416,"final_tally":{"final_score":16.5,"p1":16,"p2":17}},{"rt":762.0149999856949,"stimulus":"<div class=\"row\"><div class=\"column\"><img src=https://jmkuhns.github.io/pattern-comparison/patterns/1_09_1.png style=\"width:150px;height:150px\";></img></div><div class=\"column\"><img src=https://jmkuhns.github.io/pattern-comparison/patterns/1_09_2.png  style=\"width:150px;height:150px\";></img></div></div>","key_press":37,"corr_resp":37,"exp_stage":"pattern_comp_p1","trial_type":"html-keyboard-response","trial_index":15,"time_elapsed":40227,"internal_node_id":"0.0-6.0-0.7-0.7","dur":15753,"time_between":768,"final_tally":{"final_score":16.5,"p1":16,"p2":17}},{"rt":1545.4000000027008,"stimulus":"<div class=\"row\"><div class=\"column\"><img src=https://jmkuhns.github.io/pattern-comparison/patterns/1_10_1.png style=\"width:150px;height:150px\";></img></div><div class=\"column\"><img src=https://jmkuhns.github.io/pattern-comparison/patterns/1_10_2.png  style=\"width:150px;height:150px\";></img></div></div>","key_press":39,"corr_resp":39,"exp_stage":"pattern_comp_p1","trial_type":"html-keyboard-response","trial_index":16,"time_elapsed":41779,"internal_node_id":"0.0-6.0-0.8-0.8","dur":14985,"time_between":1552,"final_tally":{"final_score":16.5,"p1":16,"p2":17}},{"rt":882.1650000172667,"stimulus":"<div class=\"row\"><div class=\"column\"><img src=https://jmkuhns.github.io/pattern-comparison/patterns/1_11_1.png style=\"width:150px;height:150px\";></img></div><div class=\"column\"><img src=https://jmkuhns.github.io/pattern-comparison/patterns/1_11_2.png  style=\"width:150px;height:150px\";></img></div></div>","key_press":37,"corr_resp":37,"exp_stage":"pattern_comp_p1","trial_type":"html-keyboard-response","trial_index":17,"time_elapsed":42667,"internal_node_id":"0.0-6.0-0.9-0.9","dur":13433,"time_between":888,"final_tally":{"final_score":16.5,"p1":16,"p2":17}},{"rt":1577.5499999872409,"stimulus":"<div class=\"row\"><div class=\"column\"><img src=https://jmkuhns.github.io/pattern-comparison/patterns/1_12_1.png style=\"width:150px;height:150px\";></img></div><div class=\"column\"><img src=https://jmkuhns.github.io/pattern-comparison/patterns/1_12_2.png  style=\"width:150px;height:150px\";></img></div></div>","key_press":39,"corr_resp":39,"exp_stage":"pattern_comp_p1","trial_type":"html-keyboard-response","trial_index":18,"time_elapsed":44251,"internal_node_id":"0.0-6.0-0.10-0.10","dur":12545,"time_between":1584,"final_tally":{"final_score":16.5,"p1":16,"p2":17}},{"rt":1272.1950000268407,"stimulus":"<div class=\"row\"><div class=\"column\"><img src=https://jmkuhns.github.io/pattern-comparison/patterns/1_13_1.png style=\"width:150px;height:150px\";></img></div><div class=\"column\"><img src=https://jmkuhns.github.io/pattern-comparison/patterns/1_13_2.png  style=\"width:150px;height:150px\";></img></div></div>","key_press":37,"corr_resp":39,"exp_stage":"pattern_comp_p1","trial_type":"html-keyboard-response","trial_index":19,"time_elapsed":45530,"internal_node_id":"0.0-6.0-0.11-0.11","dur":10961,"time_between":1279,"final_tally":{"final_score":16.5,"p1":16,"p2":17}},{"rt":922.5999999907799,"stimulus":"<div class=\"row\"><div class=\"column\"><img src=https://jmkuhns.github.io/pattern-comparison/patterns/1_14_1.png style=\"width:150px;height:150px\";></img></div><div class=\"column\"><img src=https://jmkuhns.github.io/pattern-comparison/patterns/1_14_2.png  style=\"width:150px;height:150px\";></img></div></div>","key_press":39,"corr_resp":39,"exp_stage":"pattern_comp_p1","trial_type":"html-keyboard-response","trial_index":20,"time_elapsed":46458,"internal_node_id":"0.0-6.0-0.12-0.12","dur":9682,"time_between":928,"final_tally":{"final_score":16.5,"p1":16,"p2":17}},{"rt":731.3999999896623,"stimulus":"<div class=\"row\"><div class=\"column\"><img src=https://jmkuhns.github.io/pattern-comparison/patterns/1_15_1.png style=\"width:150px;height:150px\";></img></div><div class=\"column\"><img src=https://jmkuhns.github.io/pattern-comparison/patterns/1_15_2.png  style=\"width:150px;height:150px\";></img></div></div>","key_press":39,"corr_resp":37,"exp_stage":"pattern_comp_p1","trial_type":"html-keyboard-response","trial_index":21,"time_elapsed":47196,"internal_node_id":"0.0-6.0-0.13-0.13","dur":8754,"time_between":738,"final_tally":{"final_score":16.5,"p1":16,"p2":17}},{"rt":696.5450000134297,"stimulus":"<div class=\"row\"><div class=\"column\"><img src=https://jmkuhns.github.io/pattern-comparison/patterns/1_16_1.png style=\"width:150px;height:150px\";></img></div><div class=\"column\"><img src=https://jmkuhns.github.io/pattern-comparison/patterns/1_16_2.png  style=\"width:150px;height:150px\";></img></div></div>","key_press":39,"corr_resp":39,"exp_stage":"pattern_comp_p1","trial_type":"html-keyboard-response","trial_index":22,"time_elapsed":47899,"internal_node_id":"0.0-6.0-0.14-0.14","dur":8016,"time_between":703,"final_tally":{"final_score":16.5,"p1":16,"p2":17}},{"rt":1489.8199999588542,"stimulus":"<div class=\"row\"><div class=\"column\"><img src=https://jmkuhns.github.io/pattern-comparison/patterns/1_17_1.png style=\"width:150px;height:150px\";></img></div><div class=\"column\"><img src=https://jmkuhns.github.io/pattern-comparison/patterns/1_17_2.png  style=\"width:150px;height:150px\";></img></div></div>","key_press":37,"corr_resp":37,"exp_stage":"pattern_comp_p1","trial_type":"html-keyboard-response","trial_index":23,"time_elapsed":49395,"internal_node_id":"0.0-6.0-0.15-0.15","dur":7313,"time_between":1496,"final_tally":{"final_score":16.5,"p1":16,"p2":17}},{"rt":2297.435000014957,"stimulus":"<div class=\"row\"><div class=\"column\"><img src=https://jmkuhns.github.io/pattern-comparison/patterns/1_18_1.png style=\"width:150px;height:150px\";></img></div><div class=\"column\"><img src=https://jmkuhns.github.io/pattern-comparison/patterns/1_18_2.png  style=\"width:150px;height:150px\";></img></div></div>","key_press":39,"corr_resp":39,"exp_stage":"pattern_comp_p1","trial_type":"html-keyboard-response","trial_index":24,"time_elapsed":51699,"internal_node_id":"0.0-6.0-0.16-0.16","dur":5817,"time_between":2304,"final_tally":{"final_score":16.5,"p1":16,"p2":17}},{"rt":2626.1149999918416,"stimulus":"<div class=\"row\"><div class=\"column\"><img src=https://jmkuhns.github.io/pattern-comparison/patterns/1_19_1.png style=\"width:150px;height:150px\";></img></div><div class=\"column\"><img src=https://jmkuhns.github.io/pattern-comparison/patterns/1_19_2.png  style=\"width:150px;height:150px\";></img></div></div>","key_press":37,"corr_resp":39,"exp_stage":"pattern_comp_p1","trial_type":"html-keyboard-response","trial_index":25,"time_elapsed":54331,"internal_node_id":"0.0-6.0-0.17-0.17","dur":3513,"time_between":2632,"timeout":1,"final_tally":{"final_score":16.5,"p1":16,"p2":17}},{"rt":null,"stimulus":"<div class=\"row\"><div class=\"column\"><img src=https://jmkuhns.github.io/pattern-comparison/patterns/1_20_1.png style=\"width:150px;height:150px\";></img></div><div class=\"column\"><img src=https://jmkuhns.github.io/pattern-comparison/patterns/1_20_2.png  style=\"width:150px;height:150px\";></img></div></div>","key_press":null,"corr_resp":37,"exp_stage":"pattern_comp_p1","trial_type":"html-keyboard-response","trial_index":26,"time_elapsed":55218,"internal_node_id":"0.0-6.0-0.18-0.18","dur":0,"time_between":887,"final_tally":{"final_score":16.5,"p1":16,"p2":17}},{"rt":5307.1400000480935,"stimulus":"<p>You will now complete the same process again. You will have 30 seconds to complete as many problems as you can. <br><br>As a reminder, if the two patterns are the SAME, press the LEFT ARROW KEY. If the two patterns are DIFFERENT, press the RIGHT ARROW KEY. Please try to work as rapidly as you can.</p><br><p>Press any key to begin.</p>","key_press":13,"exp_stage":"instructions","trial_type":"html-keyboard-response","trial_index":27,"time_elapsed":60531,"internal_node_id":"0.0-7.0","dur":0,"correct_responses":{"values":[1,1,1,1,1,1,1,1,1,1,1,1,0,1,0,1,1,1,0]},"final_tally":{"final_score":16.5,"p1":16,"p2":17}},{"rt":522.4900000030175,"stimulus":"<div class=\"row\"><div class=\"column\"><img src=https://jmkuhns.github.io/pattern-comparison/patterns/2_01_1.png style=\"width:150px;height:150px\";></img></div><div class=\"column\"><img src=https://jmkuhns.github.io/pattern-comparison/patterns/2_01_2.png  style=\"width:150px;height:150px\";></img></div></div>","key_press":37,"corr_resp":39,"exp_stage":"pattern_comp_p2","trial_type":"html-keyboard-response","trial_index":28,"time_elapsed":61314,"internal_node_id":"0.0-8.0-0.0-0.0","dur":30000,"time_between":783,"final_tally":{"final_score":16.5,"p1":16,"p2":17}},{"rt":1794.7799999965355,"stimulus":"<div class=\"row\"><div class=\"column\"><img src=https://jmkuhns.github.io/pattern-comparison/patterns/2_02_1.png style=\"width:150px;height:150px\";></img></div><div class=\"column\"><img src=https://jmkuhns.github.io/pattern-comparison/patterns/2_02_2.png  style=\"width:150px;height:150px\";></img></div></div>","key_press":39,"corr_resp":39,"exp_stage":"pattern_comp_p2","trial_type":"html-keyboard-response","trial_index":29,"time_elapsed":63116,"internal_node_id":"0.0-9.0-0.0-0.0","dur":29217,"time_between":1802,"final_tally":{"final_score":16.5,"p1":16,"p2":17}},{"rt":2808.1050000037067,"stimulus":"<div class=\"row\"><div class=\"column\"><img src=https://jmkuhns.github.io/pattern-comparison/patterns/2_03_1.png style=\"width:150px;height:150px\";></img></div><div class=\"column\"><img src=https://jmkuhns.github.io/pattern-comparison/patterns/2_03_2.png  style=\"width:150px;height:150px\";></img></div></div>","key_press":39,"corr_resp":37,"exp_stage":"pattern_comp_p2","trial_type":"html-keyboard-response","trial_index":30,"time_elapsed":65931,"internal_node_id":"0.0-9.0-0.1-0.1","dur":27415,"time_between":2815,"final_tally":{"final_score":16.5,"p1":16,"p2":17}},{"rt":1575.4249999881722,"stimulus":"<div class=\"row\"><div class=\"column\"><img src=https://jmkuhns.github.io/pattern-comparison/patterns/2_04_1.png style=\"width:150px;height:150px\";></img></div><div class=\"column\"><img src=https://jmkuhns.github.io/pattern-comparison/patterns/2_04_2.png  style=\"width:150px;height:150px\";></img></div></div>","key_press":37,"corr_resp":37,"exp_stage":"pattern_comp_p2","trial_type":"html-keyboard-response","trial_index":31,"time_elapsed":67515,"internal_node_id":"0.0-9.0-0.2-0.2","dur":24600,"time_between":1584,"final_tally":{"final_score":16.5,"p1":16,"p2":17}},{"rt":1368.3249999885447,"stimulus":"<div class=\"row\"><div class=\"column\"><img src=https://jmkuhns.github.io/pattern-comparison/patterns/2_05_1.png style=\"width:150px;height:150px\";></img></div><div class=\"column\"><img src=https://jmkuhns.github.io/pattern-comparison/patterns/2_05_2.png  style=\"width:150px;height:150px\";></img></div></div>","key_press":39,"corr_resp":37,"exp_stage":"pattern_comp_p2","trial_type":"html-keyboard-response","trial_index":32,"time_elapsed":68890,"internal_node_id":"0.0-9.0-0.3-0.3","dur":23016,"time_between":1375,"final_tally":{"final_score":16.5,"p1":16,"p2":17}},{"rt":1865.6949999858625,"stimulus":"<div class=\"row\"><div class=\"column\"><img src=https://jmkuhns.github.io/pattern-comparison/patterns/2_06_1.png style=\"width:150px;height:150px\";></img></div><div class=\"column\"><img src=https://jmkuhns.github.io/pattern-comparison/patterns/2_06_2.png  style=\"width:150px;height:150px\";></img></div></div>","key_press":37,"corr_resp":37,"exp_stage":"pattern_comp_p2","trial_type":"html-keyboard-response","trial_index":33,"time_elapsed":70762,"internal_node_id":"0.0-9.0-0.4-0.4","dur":21641,"time_between":1872,"final_tally":{"final_score":16.5,"p1":16,"p2":17}},{"rt":888.3750000386499,"stimulus":"<div class=\"row\"><div class=\"column\"><img src=https://jmkuhns.github.io/pattern-comparison/patterns/2_07_1.png style=\"width:150px;height:150px\";></img></div><div class=\"column\"><img src=https://jmkuhns.github.io/pattern-comparison/patterns/2_07_2.png  style=\"width:150px;height:150px\";></img></div></div>","key_press":39,"corr_resp":39,"exp_stage":"pattern_comp_p2","trial_type":"html-keyboard-response","trial_index":34,"time_elapsed":71658,"internal_node_id":"0.0-9.0-0.5-0.5","dur":19769,"time_between":896,"final_tally":{"final_score":16.5,"p1":16,"p2":17}},{"rt":1081.0100000235252,"stimulus":"<div class=\"row\"><div class=\"column\"><img src=https://jmkuhns.github.io/pattern-comparison/patterns/2_08_1.png style=\"width:150px;height:150px\";></img></div><div class=\"column\"><img src=https://jmkuhns.github.io/pattern-comparison/patterns/2_08_2.png  style=\"width:150px;height:150px\";></img></div></div>","key_press":39,"corr_resp":39,"exp_stage":"pattern_comp_p2","trial_type":"html-keyboard-response","trial_index":35,"time_elapsed":72746,"internal_node_id":"0.0-9.0-0.6-0.6","dur":18873,"time_between":1088,"final_tally":{"final_score":16.5,"p1":16,"p2":17}},{"rt":737.4950000084937,"stimulus":"<div class=\"row\"><div class=\"column\"><img src=https://jmkuhns.github.io/pattern-comparison/patterns/2_09_1.png style=\"width:150px;height:150px\";></img></div><div class=\"column\"><img src=https://jmkuhns.github.io/pattern-comparison/patterns/2_09_2.png  style=\"width:150px;height:150px\";></img></div></div>","key_press":37,"corr_resp":37,"exp_stage":"pattern_comp_p2","trial_type":"html-keyboard-response","trial_index":36,"time_elapsed":73490,"internal_node_id":"0.0-9.0-0.7-0.7","dur":17785,"time_between":744,"final_tally":{"final_score":16.5,"p1":16,"p2":17}},{"rt":745.409999974072,"stimulus":"<div class=\"row\"><div class=\"column\"><img src=https://jmkuhns.github.io/pattern-comparison/patterns/2_10_1.png style=\"width:150px;height:150px\";></img></div><div class=\"column\"><img src=https://jmkuhns.github.io/pattern-comparison/patterns/2_10_2.png  style=\"width:150px;height:150px\";></img></div></div>","key_press":37,"corr_resp":37,"exp_stage":"pattern_comp_p2","trial_type":"html-keyboard-response","trial_index":37,"time_elapsed":74243,"internal_node_id":"0.0-9.0-0.8-0.8","dur":17041,"time_between":753,"final_tally":{"final_score":16.5,"p1":16,"p2":17}},{"rt":1136.6949999937788,"stimulus":"<div class=\"row\"><div class=\"column\"><img src=https://jmkuhns.github.io/pattern-comparison/patterns/2_11_1.png style=\"width:150px;height:150px\";></img></div><div class=\"column\"><img src=https://jmkuhns.github.io/pattern-comparison/patterns/2_11_2.png  style=\"width:150px;height:150px\";></img></div></div>","key_press":39,"corr_resp":39,"exp_stage":"pattern_comp_p2","trial_type":"html-keyboard-response","trial_index":38,"time_elapsed":75386,"internal_node_id":"0.0-9.0-0.9-0.9","dur":16288,"time_between":1143,"final_tally":{"final_score":16.5,"p1":16,"p2":17}},{"rt":1105.0999999861233,"stimulus":"<div class=\"row\"><div class=\"column\"><img src=https://jmkuhns.github.io/pattern-comparison/patterns/2_12_1.png style=\"width:150px;height:150px\";></img></div><div class=\"column\"><img src=https://jmkuhns.github.io/pattern-comparison/patterns/2_12_2.png  style=\"width:150px;height:150px\";></img></div></div>","key_press":39,"corr_resp":39,"exp_stage":"pattern_comp_p2","trial_type":"html-keyboard-response","trial_index":39,"time_elapsed":76498,"internal_node_id":"0.0-9.0-0.10-0.10","dur":15145,"time_between":1112,"final_tally":{"final_score":16.5,"p1":16,"p2":17}},{"rt":721.929999999702,"stimulus":"<div class=\"row\"><div class=\"column\"><img src=https://jmkuhns.github.io/pattern-comparison/patterns/2_13_1.png style=\"width:150px;height:150px\";></img></div><div class=\"column\"><img src=https://jmkuhns.github.io/pattern-comparison/patterns/2_13_2.png  style=\"width:150px;height:150px\";></img></div></div>","key_press":37,"corr_resp":37,"exp_stage":"pattern_comp_p2","trial_type":"html-keyboard-response","trial_index":40,"time_elapsed":77226,"internal_node_id":"0.0-9.0-0.11-0.11","dur":14033,"time_between":728,"final_tally":{"final_score":16.5,"p1":16,"p2":17}},{"rt":977.7149999863468,"stimulus":"<div class=\"row\"><div class=\"column\"><img src=https://jmkuhns.github.io/pattern-comparison/patterns/2_14_1.png style=\"width:150px;height:150px\";></img></div><div class=\"column\"><img src=https://jmkuhns.github.io/pattern-comparison/patterns/2_14_2.png  style=\"width:150px;height:150px\";></img></div></div>","key_press":39,"corr_resp":39,"exp_stage":"pattern_comp_p2","trial_type":"html-keyboard-response","trial_index":41,"time_elapsed":78211,"internal_node_id":"0.0-9.0-0.12-0.12","dur":13305,"time_between":985,"final_tally":{"final_score":16.5,"p1":16,"p2":17}},{"rt":791.4899999741465,"stimulus":"<div class=\"row\"><div class=\"column\"><img src=https://jmkuhns.github.io/pattern-comparison/patterns/2_15_1.png style=\"width:150px;height:150px\";></img></div><div class=\"column\"><img src=https://jmkuhns.github.io/pattern-comparison/patterns/2_15_2.png  style=\"width:150px;height:150px\";></img></div></div>","key_press":37,"corr_resp":39,"exp_stage":"pattern_comp_p2","trial_type":"html-keyboard-response","trial_index":42,"time_elapsed":79010,"internal_node_id":"0.0-9.0-0.13-0.13","dur":12320,"time_between":799,"final_tally":{"final_score":16.5,"p1":16,"p2":17}},{"rt":690.1450000004843,"stimulus":"<div class=\"row\"><div class=\"column\"><img src=https://jmkuhns.github.io/pattern-comparison/patterns/2_16_1.png style=\"width:150px;height:150px\";></img></div><div class=\"column\"><img src=https://jmkuhns.github.io/pattern-comparison/patterns/2_16_2.png  style=\"width:150px;height:150px\";></img></div></div>","key_press":39,"corr_resp":39,"exp_stage":"pattern_comp_p2","trial_type":"html-keyboard-response","trial_index":43,"time_elapsed":79706,"internal_node_id":"0.0-9.0-0.14-0.14","dur":11521,"time_between":696,"final_tally":{"final_score":16.5,"p1":16,"p2":17}},{"rt":785.4199999710545,"stimulus":"<div class=\"row\"><div class=\"column\"><img src=https://jmkuhns.github.io/pattern-comparison/patterns/2_17_1.png style=\"width:150px;height:150px\";></img></div><div class=\"column\"><img src=https://jmkuhns.github.io/pattern-comparison/patterns/2_17_2.png  style=\"width:150px;height:150px\";></img></div></div>","key_press":37,"corr_resp":37,"exp_stage":"pattern_comp_p2","trial_type":"html-keyboard-response","trial_index":44,"time_elapsed":80498,"internal_node_id":"0.0-9.0-0.15-0.15","dur":10825,"time_between":792,"final_tally":{"final_score":16.5,"p1":16,"p2":17}},{"rt":721.0700000287034,"stimulus":"<div class=\"row\"><div class=\"column\"><img src=https://jmkuhns.github.io/pattern-comparison/patterns/2_18_1.png style=\"width:150px;height:150px\";></img></div><div class=\"column\"><img src=https://jmkuhns.github.io/pattern-comparison/patterns/2_18_2.png  style=\"width:150px;height:150px\";></img></div></div>","key_press":37,"corr_resp":37,"exp_stage":"pattern_comp_p2","trial_type":"html-keyboard-response","trial_index":45,"time_elapsed":81226,"internal_node_id":"0.0-9.0-0.16-0.16","dur":10033,"time_between":728,"final_tally":{"final_score":16.5,"p1":16,"p2":17}},{"rt":984.1100000194274,"stimulus":"<div class=\"row\"><div class=\"column\"><img src=https://jmkuhns.github.io/pattern-comparison/patterns/2_19_1.png style=\"width:150px;height:150px\";></img></div><div class=\"column\"><img src=https://jmkuhns.github.io/pattern-comparison/patterns/2_19_2.png  style=\"width:150px;height:150px\";></img></div></div>","key_press":37,"corr_resp":37,"exp_stage":"pattern_comp_p2","trial_type":"html-keyboard-response","trial_index":46,"time_elapsed":82218,"internal_node_id":"0.0-9.0-0.17-0.17","dur":9305,"time_between":992,"final_tally":{"final_score":16.5,"p1":16,"p2":17}},{"rt":912.5249999924563,"stimulus":"<div class=\"row\"><div class=\"column\"><img src=https://jmkuhns.github.io/pattern-comparison/patterns/2_20_1.png style=\"width:150px;height:150px\";></img></div><div class=\"column\"><img src=https://jmkuhns.github.io/pattern-comparison/patterns/2_20_2.png  style=\"width:150px;height:150px\";></img></div></div>","key_press":37,"corr_resp":37,"exp_stage":"pattern_comp_p2","trial_type":"html-keyboard-response","trial_index":47,"time_elapsed":83138,"internal_node_id":"0.0-9.0-0.18-0.18","dur":8313,"time_between":920,"final_tally":{"final_score":16.5,"p1":16,"p2":17}},{"rt":6651.2300000176765,"stimulus":"<div class=\"row\"><div class=\"column\"><img src=https://jmkuhns.github.io/pattern-comparison/patterns/2_21_1.png style=\"width:150px;height:150px\";></img></div><div class=\"column\"><img src=https://jmkuhns.github.io/pattern-comparison/patterns/2_21_2.png  style=\"width:150px;height:150px\";></img></div></div>","key_press":37,"corr_resp":37,"exp_stage":"pattern_comp_p2","trial_type":"html-keyboard-response","trial_index":48,"time_elapsed":89796,"internal_node_id":"0.0-9.0-0.19-0.19","dur":7393,"time_between":6658,"timeout":1,"final_tally":{"final_score":16.5,"p1":16,"p2":17}},{"rt":null,"stimulus":"<div class=\"row\"><div class=\"column\"><img src=https://jmkuhns.github.io/pattern-comparison/patterns/2_22_1.png style=\"width:150px;height:150px\";></img></div><div class=\"column\"><img src=https://jmkuhns.github.io/pattern-comparison/patterns/2_22_2.png  style=\"width:150px;height:150px\";></img></div></div>","key_press":null,"corr_resp":39,"exp_stage":"pattern_comp_p2","trial_type":"html-keyboard-response","trial_index":49,"time_elapsed":90542,"internal_node_id":"0.0-9.0-0.20-0.20","dur":0,"time_between":746,"final_tally":{"final_score":16.5,"p1":16,"p2":17}},{"rt":111.23500001849607,"stimulus":"<p>You have now completed the experiment. Thank you!</p>","key_press":39,"exp_stage":"instructions","trial_type":"html-keyboard-response","trial_index":50,"time_elapsed":90657,"internal_node_id":"0.0-10.0","correct_responses":{"values":[0,1,0,1,0,1,1,1,1,1,1,1,1,1,0,1,1,1,1,1,1]},"final_tally":{"final_score":16.5,"p1":16,"p2":17}}]